# Format: McStas Reflectivity file
# FRM II Neutron Optics 80nm Ni coating on glass
# Reference:
# Ni monolayer d=80nm
# Measurement at lambda=4.74 Angs
# [ k(Angs-1) Reflectivity(% in 0-1) ]
# wavevector multiply
-0.0008 0.2501
-0.0001 0.3747
0.0010  0.4622
0.0019  0.4687
0.0028  0.5105
0.0035  0.6203
0.0047  0.7981
0.0056  0.9016
0.0063  0.9469
0.0074  0.9915
0.0084  0.9814
0.0093  0.9963
0.0101  1.0113
0.0112  0.9815
0.0119  1.0079
0.0130  0.9995
0.0138  0.9958
0.0149  0.9969
0.0157  0.9882
0.0166  1.0018
0.0176  0.9986
0.0186  0.9787
0.0194  0.9706
0.0203  0.8891
0.0213  0.5754
0.0222  0.5905
0.0231  0.5640
0.0241  0.2253
0.0250  0.1194
0.0259  0.1654
0.0268  0.1095
0.0278  0.0445
0.0261  0.1681
0.0268  0.1134
0.0278  0.0366
0.0287  0.0523
0.0296  0.0534
0.0305  0.0505
0.0315  0.0239
0.0323  0.0145
0.0334  0.0148
0.0343  0.0238
0.0352  0.0211
0.0361  0.0159
0.0370  0.0104
0.0380  0.0051
0.0389  0.0051
0.0397  0.0071
0.0408  0.0104
0.0416  0.0084
0.0424  0.0071
0.0436  0.0038
0.0443  0.0022
0.0455  0.0023
0.0461  0.0036
0.0472  0.0047
0.0481  0.0047
0.0490  0.0033
0.0499  0.0026
0.0509  0.0009
0.0518  0.0011
0.0527  0.0016
0.0537  0.0023
0.0546  0.0029
0.0555  0.0024
0.0564  0.0016
0.0574  0.0011
0.0583  0.0006
0.0592  0.0007
0.0601  0.0012
0.0583  0.0006
0.0592  0.0008
0.0601  0.0011
0.0611  0.0016
0.0619  0.0015
0.0629  0.0012
0.0639  0.0008
0.0647  0.0005
0.0657  0.0004
0.0664  0.0005
0.0677  0.0007
0.0683  0.0009
0.0695  0.0009
0.0702  0.0007
0.0712  0.0004
0.0722  0.0003
0.0729  0.0002
0.0741  0.0004
0.0749  0.0005
0.0758  0.0005
0.0768  0.0006
0.0777  0.0004
0.0786  0.0002
0.0795  0.0002
0.0805  0.0002
0.0814  0.0002
0.0823  0.0003
0.0833  0.0004
0.0842  0.0003
0.0851  0.0003
0.0860  0.0002
0.0870  0.0001
0.0879  0.0001
0.0888  0.0002
0.0898  0.0003
0.0907  0.0003
0.0916  0.0002
0.0925  0.0002
0.0935  0.0001
0.0944  0.0001
0.0953  0.0001
0.0962  0.0001
0.0972  0.0002
